Folder: NTM_Physical_Based_Battery_Model/Julia/LGM50 PBBM Validation

Note: README.md
# Physical_Based_Battery_Model
MSc Dissertation repository for Lithium Physical Based Battery Modelling

The following is the project methodology for how the research will be conducted. Boxes with a light-yellow shade indicate literature review tasks, light blue is accessing software tools and light red is the modelling phase.
![MSc Diss (2)](https://user-images.githubusercontent.com/83457561/157672839-8b6f0dbd-b267-4f49-9827-4541d43f18b8.png)

File: 201204-LGM50-Conditioning-Charge+Discharge_Cycle2_Channel_1_Wb_1.CSV
Data_Point,Date_Time,Test_Time(s),Step_Time(s),Cycle_Index,Step_Index,Current(A),Voltage(V),Power(W),Charge_Capacity(Ah),Discharge_Capacity(Ah),Charge_Energy(Wh),Discharge_Energy(Wh),ACR(Ohm),dV/dt(V/s),Internal_Resistance(Ohm),dQ/dV(Ah/V),dV/dQ(V/Ah),Aux_Temperature_1(C),Aux_dT/dt_1(C),Aux_Temperature_2(C),Aux_dT/dt_2(C),Aux_Temperature_3(C),Aux_dT/dt_3(C),Aux_Temperature_4(C),Aux_dT/dt_4(C),Aux_Temperature_5(C),Aux_dT/dt_5(C),Aux_Temperature_6(C),Aux_dT/dt_6(C),Aux_Temperature_7(C),Aux_dT/dt_7(C),Aux_Temperature_8(C),Aux_dT/dt_8(C),Aux_Temperature_9(C),Aux_dT/dt_9(C),Aux_Temperature_10(C),Aux_dT/dt_10(C),Aux_Temperature_11(C),Aux_dT/dt_11(C),Aux_Temperature_12(C),Aux_dT/dt_12(C),Aux_Temperature_13(C),Aux_dT/dt_13(C),Aux_Temperature_14(C),Aux_dT/dt_14(C),Aux_Temperature_15(C),Aux_dT/dt_15(C),Aux_Temperature_16(C),Aux_dT/dt_16(C),Aux_Temperature_17(Espec(C)),Aux_dT/dt_17(Espec(C))
1,12/04/2020 17:36:52:017,10.0001,10.0001,1,1,0,3.473289,0,0,0,0,0,,-0.000286738,,,,28.33334,0.007663965,-270,0,-270,0,-270,0,-270,0,-270,0,-270,0,-270,0,-270,0,-270,0,-270,0,-270,0,-270,0,-270,0,-270,0,-270,0,25.4,0
357,12/04/2020 17:43:11:772,389.7556,353.0001,1,3,3.396332,3.67324,12.4755,0.3326872,0,1.208539,0,,,,,,27.85386,-0.1651841,-270,0,-270,0,-270,0,-270,0,-270,0,-270,0,-270,0,-270,0,-270,0,-270,0,-270,0,-270,0,-270,0,-270,0,-270,0,24.3,0
713,12/04/2020 17:49:07:772,745.7556,709.0001,1,3,3.39608,3.72466,12.6492,0.6685008,0,2.451118,0,,,,,,28.4808,0.12519,-270,0,-270,0,-270,0,-270,0,-270,0,-270,0,-270,0,-270,0,-270,0,-270,0,-270,0,-270,0,-270,0,-270,0,-270,0,25,0
1069,12/04/2020 17:55:03:772,1101.76,1065,1,3,3.397003,3.775214,12.8244,1.004323,0,3.71049,0,,,,,,27.92152,-0.1858461,-270,0,-270,0,-270,0,-270,0,-270,0,-270,0,-270,0,-270,0,-270,0,-270,0,-270,0,-270,0,-270,0,-270,0,-270,0,25,0
1425,12/04/2020 18:00:59:772,1457.76,1421,1,3,3.396751,3.823421,12.9872,1.340146,0,4.986142,0,,,,,,28.13914,0.05150318,-270,0,-270,0,-270,0,-270,0,-270,0,-270,0,-270,0,-270,0,-270,0,-270,0,-270,0,-270,0,-270,0,-270,0,-270,0,25,0
1781,12/04/2020 18:06:55:772,1813.76,1777,1,3,3.396759,3.884049,13.1932,1.675954,0,6.279728,0,,,,,,28.00488,-0.1770085,-270,0,-270,0,-270,0,-270,0,-270,0,-270,0,-270,0,-270,0,-270,0,-270,0,-270,0,-270,0,-270,0,-270,0,-270,0,25,0
2137,12/04/2020 18:12:51:772,2169.76,2133,1,3,3.396828,3.957379,13.4425,2.011791,0,7.596277,0,,,,,,28.58954,0.06720543,-270,0,-270,0,-270,0,-270,0,-270,0,-270,0,-270,0,-270,0,-270,0,-270,0,-270,0,-270,0,-270,0,-270,0,-270,0,25,0
2493,12/04/2020 18:18:47:773,2525.76,2489,1,3,3.39724,4.02959,13.6895,2.347654,0,8.937699,0,,,,,,28.65283,-0.005611181,-270,0,-270,0,-270,0,-270,0,-270,0,-270,0,-270,0,-270,0,-270,0,-270,0,-270,0,-270,0,-270,0,-270,0,-270,0,24.9,0
2849,12/04/2020 18:24:43:773,2881.76,2845,1,3,3.397156,4.097495,13.9198,2.683522,0,10.30246,0,,,,,,28.09157,-0.2261794,-270,0,-270,0,-270,0,-270,0,-270,0,-270,0,-270,0,-270,0,-270,0,-270,0,-270,0,-270,0,-270,0,-270,0,-270,0,25,0
3205,12/04/2020 18:30:39:773,3237.756,3201,1,3,3.396698,4.172833,14.1739,3.019378,0,11.691,0,,0.000215047,,,,28.26147,-0.07466018,-270,0,-270,0,-270,0,-270,0,-270,0,-270,0,-270,0,-270,0,-270,0,-270,0,-270,0,-270,0,-270,0,-270,0,-270,0,25,0
3561,12/04/2020 18:36:35:773,3593.76,3557,1,3,2.452917,4.200107,10.3025,3.320549,0,12.95431,0,,,,,,27.96638,-0.04151762,-270,0,-270,0,-270,0,-270,0,-270,0,-270,0,-270,0,-270,0,-270,0,-270,0,-270,0,-270,0,-270,0,-270,0,-270,0,25,0
3917,12/04/2020 18:42:31:772,3949.76,3913,1,3,1.786675,4.200105,7.50422,3.525201,0,13.81385,0,,,,,,27.87801,0.09511113,-270,0,-270,0,-270,0,-270,0,-270,0,-270,0,-270,0,-270,0,-270,0,-270,0,-270,0,-270,0,-270,0,-270,0,-270,0,25,0
4273,12/04/2020 18:48:27:773,4305.756,4269,1,3,1.467513,4.199996,6.16355,3.684556,0,14.48314,0,,,,,,27.22583,-0.103963,-270,0,-270,0,-270,0,-270,0,-270,0,-270,0,-270,0,-270,0,-270,0,-270,0,-270,0,-270,0,-270,0,-270,0,-270,0,25,0
4629,12/04/2020 18:54:23:772,4661.76,4625,1,3,1.230459,4.200004,5.16793,3.817717,0,15.04241,0,,,,,,26.99699,-0.1023716,-270,0,-270,0,-270,0,-270,0,-270,0,-270,0,-270,0,-270,0,-270,0,-270,0,-270,0,-270,0,-270,0,-270,0,-270,0,25,0
4985,12/04/2020 19:00:19:773,5017.76,4981,1,3,0.9973581,4.199965,4.18887,3.927823,0,15.50486,0,,,,,,27.51674,0.188508,-270,0,-270,0,-270,0,-270,0,-270,0,-270,0,-270,0,-270,0,-270,0,-270,0,-270,0,-270,0,-270,0,-270,0,-270,0,25,0
5341,12/04/2020 19:06:15:772,5373.76,5337,1,3,0.7624661,4.200033,3.20238,4.014608,0,15.86936,0,,,,,,27.63689,0.01667976,-270,0,-270,0,-270,0,-270,0,-270,0,-270,0,-270,0,-270,0,-270,0,-270,0,-270,0,-270,0,-270,0,-270,0,-270,0,24.9,0
5697,12/04/2020 19:12:11:772,5729.76,5693,1,3,0.5491081,4.199995,2.30625,4.079053,0,16.14003,0,,,,,,27.49271,0.1093823,-270,0,-270,0,-270,0,-270,0,-270,0,-270,0,-270,0,-270,0,-270,0,-270,0,-270,0,-270,0,-270,0,-270,0,-270,0,25,0
6053,12/04/2020 19:18:07:772,6085.76,6049,1,3,0.3775133,4.199916,1.58552,4.124454,0,16.33071,0,,,,,,27.09572,0.179671,-270,0,-270,0,-270,0,-270,0,-270,0,-270,0,-270,0,-270,0,-270,0,-270,0,-270,0,-270,0,-270,0,-270,0,-270,0,25,0
6409,12/04/2020 19:24:03:772,6441.76,6405,1,3,0.2560239,4.199802,1.07525,4.155376,0,16.46058,0,,,,,,26.7141,-0.02146661,-270,0,-270,0,-270,0,-270,0,-270,0,-270,0,-270,0,-270,0,-270,0,-270,0,-270,0,-270,0,-270,0,-270,0,-270,0,25.1,0
6765,12/04/2020 19:29:59:773,6797.76,6761,1,3,0.1726747,4.199943,0.725224,4.17621,0,16.54809,0,,,,,,27.03882,-0.05341172,-270,0,-270,0,-270,0,-270,0,-270,0,-270,0,-270,0,-270,0,-270,0,-270,0,-270,0,-270,0,-270,0,-270,0,-270,0,25,0
7121,12/04/2020 19:35:55:772,7153.76,7117,1,3,0.1198681,4.199991,0.503445,4.190413,0,16.60773,0,,,,,,27.6441,0.1771605,-270,0,-270,0,-270,0,-270,0,-270,0,-270,0,-270,0,-270,0,-270,0,-270,0,-270,0,-270,0,-270,0,-270,0,-270,0,25,0
7477,12/04/2020 19:41:51:773,7509.76,7473,1,3,0.08447584,4.199988,0.354798,4.200339,0,16.64942,0,,,,,,27.39869,-0.2329075,-270,0,-270,0,-270,0,-270,0,-270,0,-270,0,-270,0,-270,0,-270,0,-270,0,-270,0,-270,0,-270,0,-270,0,-270,0,25.1,0
7833,12/04/2020 19:47:47:772,7865.76,7829,1,3,0.06302153,4.199978,0.264689,4.207528,0,16.67962,0,,,,,,28.24768,-0.1457584,-270,0,-270,0,-270,0,-270,0,-270,0,-270,0,-270,0,-270,0,-270,0,-270,0,-270,0,-270,0,-270,0,-270,0,-270,0,25,0
8189,12/04/2020 19:54:38:167,8276.15,110.0002,1,4,0,4.196924,0,4.212204,0,16.69926,0,,1.2723e-05,,,,27.6011,-0.06782234,-270,0,-270,0,-270,0,-270,0,-270,0,-270,0,-270,0,-270,0,-270,0,-270,0,-270,0,-270,0,-270,0,-270,0,-270,0,25,0
8545,12/04/2020 20:23:57:229,10035.212,69.0006,1,6,-5.002258,3.959065,-19.8043,4.212204,0.09584986,16.69926,0.3827055,,,,2.00009,,27.14236,0.1396173,-270,0,-270,0,-270,0,-270,0,-270,0,-270,0,-270,0,-270,0,-270,0,-270,0,-270,0,-270,0,-270,0,-270,0,-270,0,25,0
8901,12/04/2020 20:29:53:228,10391.2,425.0005,1,6,-5.001358,3.862318,-19.3168,4.212204,0.5903996,16.69926,2.312525,,,,,,28.47419,0.03639281,-270,0,-270,0,-270,0,-270,0,-270,0,-270,0,-270,0,-270,0,-270,0,-270,0,-270,0,-270,0,-270,0,-270,0,-270,0,25,0
9257,12/04/2020 20:35:49:229,10747.212,781.0006,1,6,-5.002472,3.766408,-18.8414,4.212204,1.084952,16.69926,4.201072,,,,,,28.65236,0.05028546,-270,0,-270,0,-270,0,-270,0,-270,0,-270,0,-270,0,-270,0,-270,0,-270,0,-270,0,-270,0,-270,0,-270,0,-270,0,25,0
[...]
10325,12/04/2020 20:53:37:228,11815.2,1849,1,6,-5.002106,3.441913,-17.2168,4.212204,2.568657,16.69926,9.546187,,,,,,29.13634,-0.1006317,-270,0,-270,0,-270,0,-270,0,-270,0,-270,0,-270,0,-270,0,-270,0,-270,0,-270,0,-270,0,-270,0,-270,0,-270,0,25,0
10681,12/04/2020 20:59:33:228,12171.2,2205,1,6,-5.002815,3.355615,-16.7875,4.212204,3.063273,16.69926,11.22648,,,,,,29.31829,0.01396298,-270,0,-270,0,-270,0,-270,0,-270,0,-270,0,-270,0,-270,0,-270,0,-270,0,-270,0,-270,0,-270,0,-270,0,-270,0,25,0
11037,12/04/2020 21:05:29:229,12527.2,2561,1,6,-5.002571,3.275634,-16.3866,4.212204,3.557866,16.69926,12.86671,,-0.000257622,,,,30.07244,0.03189147,-270,0,-270,0,-270,0,-270,0,-270,0,-270,0,-270,0,-270,0,-270,0,-270,0,-270,0,-270,0,-270,0,-270,0,-270,0,25,0
11393,12/04/2020 21:11:25:228,12883.2,2917,1,6,-5.002914,3.168693,-15.8527,4.212204,4.052478,16.69926,14.46267,,,,,,30.25259,0.1273948,-270,0,-270,0,-270,0,-270,0,-270,0,-270,0,-270,0,-270,0,-270,0,-270,0,-270,0,-270,0,-270,0,-270,0,-270,0,25,0
11749,12/04/2020 21:17:21:229,13239.2,3273,1,6,-5.0028,2.910357,-14.5599,4.212204,4.547124,16.69926,15.97754,,-0.00118515,,,,30.95368,0.02487123,-270,0,-270,0,-270,0,-270,0,-270,0,-270,0,-270,0,-270,0,-270,0,-270,0,-270,0,-270,0,-270,0,-270,0,-270,0,25,0
12105,12/04/2020 21:23:16:903,13594.9,154.0001,1,7,0,2.915293,0,4.212204,4.827286,16.69926,16.74837,,,,,,29.99732,-0.04074574,-270,0,-270,0,-270,0,-270,0,-270,0,-270,0,-270,0,-270,0,-270,0,-270,0,-270,0,-270,0,-270,0,-270,0,-270,0,25,0
12461,12/04/2020 21:29:12:904,13950.9,510.0005,1,7,0,2.946059,0,4.212204,4.827286,16.69926,16.74837,,5.30258e-05,,,,27.86737,-0.1020455,-270,0,-270,0,-270,0,-270,0,-270,0,-270,0,-270,0,-270,0,-270,0,-270,0,-270,0,-270,0,-270,0,-270,0,-270,0,25,0
12817,12/04/2020 21:48:50:966,15128.9,488.0004,1,9,3.395187,3.565173,12.1044,4.672384,4.827286,18.28967,16.74837,,,,,,28.00604,-0.04302442,-270,0,-270,0,-270,0,-270,0,-270,0,-270,0,-270,0,-270,0,-270,0,-270,0,-270,0,-270,0,-270,0,-270,0,-270,0,25,0
13173,12/04/2020 22:00:42:965,15840.9,1200,1,9,1.618913,3.599884,5.8279,5.186197,4.827286,20.1366,16.74837,,,,,,27.82918,-0.003706217,-270,0,-270,0,-270,0,-270,0,-270,0,-270,0,-270,0,-270,0,-270,0,-270,0,-270,0,-270,0,-270,0,-270,0,-270,0,25,0
13529,12/04/2020 22:12:34:966,16552.9,1912,1,9,0.6637982,3.600014,2.38968,5.395888,4.827286,20.89149,16.74837,,,,,,27.22962,0.03122509,-270,0,-270,0,-270,0,-270,0,-270,0,-270,0,-270,0,-270,0,-270,0,-270,0,-270,0,-270,0,-270,0,-270,0,-270,0,25,0
13885,12/04/2020 22:24:26:966,17264.9,2624,1,9,0.3013351,3.599979,1.0848,5.486164,4.827286,21.21648,16.74837,,,,,,26.94791,0.004185438,-270,0,-270,0,-270,0,-270,0,-270,0,-270,0,-270,0,-270,0,-270,0,-270,0,-270,0,-270,0,-270,0,-270,0,-270,0,25,0
14241,12/04/2020 22:36:18:965,17976.9,3336,1,9,0.1471524,3.600013,0.529751,5.528192,4.827286,21.36778,16.74837,,,,,,26.78762,0.1543164,-270,0,-270,0,-270,0,-270,0,-270,0,-270,0,-270,0,-270,0,-270,0,-270,0,-270,0,-270,0,-270,0,-270,0,-270,0,25,0
14597,12/04/2020 22:48:10:966,18688.9,4048,1,9,0.07991906,3.600053,0.287713,5.549646,4.827286,21.44502,16.74837,,,,,,26.55107,0.02417624,-270,0,-270,0,-270,0,-270,0,-270,0,-270,0,-270,0,-270,0,-270,0,-270,0,-270,0,-270,0,-270,0,-270,0,-270,0,25,0
14910,12/04/2020 22:58:36:248,19314.2,4673.283,1,9,0.0499964,3.59997,0.179986,5.560671,4.827286,21.48471,16.74837,,8.06049e-06,0,0,0,26.72361,-0.07749379,-270,0,-270,0,-270,0,-270,0,-270,0,-270,0,-270,0,-270,0,-270,0,-270,0,-270,0,-270,0,-270,0,-270,0,-270,0,25,0

File: 210129_LGM50_GITT_Channel_3_Wb_1.CSV
Data_Point,Date_Time,Test_Time(s),Step_Time(s),Cycle_Index,Step_Index,Current(A),Voltage(V),Power(W),Charge_Capacity(Ah),Discharge_Capacity(Ah),Charge_Energy(Wh),Discharge_Energy(Wh),ACR(Ohm),dV/dt(V/s),Internal_Resistance(Ohm),dQ/dV(Ah/V),dV/dQ(V/Ah)
1,2021/01/29 08:32:05,30.0008,30.0007,1,1,0,3.071703,0,0,0,0,0,,-1.03127e-05,,,
280,2021/01/29 09:38:59,4043.408,2140,1,4,1.499935,3.581188,5.37155,0.8906245,0.000000001739925,3.088765,0.000000005344285,,5.06151e-05,,,
559,2021/01/29 10:25:29,6833.41,4930,1,4,1.500032,3.763975,5.64608,2.051718,0.000000001739925,7.359852,0.000000005344285,,6.38475e-05,,,
838,2021/01/29 11:11:59,9623.41,7720,1,4,1.49991,3.988601,5.98254,3.212862,0.000000001739925,11.86198,0.000000005344285,,5.33406e-05,,,
1117,2021/01/29 11:58:29,12413.4,10510,1,4,1.356349,4.199965,5.69662,4.370745,0.000000001739925,16.61925,0.000000005344285,,,,,
1396,2021/01/29 12:44:59,15203.4,13300,1,4,0.07734507,4.199989,0.324848,4.766577,0.000000001739925,18.28175,0.000000005344285,,1.35923e-05,,,
1675,2021/01/29 15:00:06,23310.8,438.0002,1,6,-1.250179,4.070789,-5.08921,4.774758,0.1519174,18.31611,0.6225855,,,,,
1954,2021/01/29 15:07:05,23729.9,137.0004,1,7,0,4.10336,0,4.774758,0.2497324,18.31611,1.019814,,,,,
2233,2021/01/29 15:11:44,24008.9,416.0004,1,7,0,4.106218,0,4.774758,0.2497324,18.31611,1.019814,,,,,
2512,2021/01/29 16:48:48,29832.9,5640,1,8,0,4.108641,0,4.774758,0.2497324,18.31611,1.019814,,9.48293e-06,,,
2791,2021/01/29 19:09:30,38274.9,282.0002,1,6,-1.250165,4.041691,-5.05278,4.774758,0.347556,18.31611,1.416111,,,,,
3070,2021/01/29 19:17:47,38772,59.0004,1,7,0,4.076261,0,4.774758,0.4994788,18.31611,2.028883,,,,,
3349,2021/01/29 19:22:26,39050.96,338.0002,1,7,0,4.083552,0,4.774758,0.4994788,18.31611,2.028883,,,,,
3628,2021/01/29 19:42:48,40273,960,1,8,0,4.085604,0,4.774758,0.4994788,18.31611,2.028883,,-8.13945e-06,,,
3907,2021/01/29 23:18:54,53239,126.0008,1,6,-1.250188,4.026365,-5.03371,4.774758,0.5431914,18.31611,2.205283,,,,,
4186,2021/01/29 23:28:12,53797,684,1,6,-1.250182,3.99737,-4.99744,4.774758,0.7367455,18.31611,2.981772,,,,,
4465,2021/01/29 23:33:08,54093.1,260.0002,1,7,0,4.05843,0,4.774758,0.749237,18.31611,3.031692,,,,,
4744,2021/01/29 23:37:47,54372.1,539.0001,1,7,0,4.060082,0,4.774758,0.749237,18.31611,3.031692,,,,,
5023,2021/01/30 03:15:48,67453.1,13020,1,8,0,4.062215,0,4.774758,0.749237,18.31611,3.031692,,-1.2565e-05,,,
5302,2021/01/30 03:37:36,68761.1,528,1,6,-1.25019,3.957014,-4.94702,4.774758,0.9323879,18.31611,3.760954,,,,,
5581,2021/01/30 03:43:50,69135.171,182.0009,1,7,0,4.006085,0,4.774758,0.9989882,18.31611,4.023953,,,,,
5860,2021/01/30 03:48:29,69414.2,461.0004,1,7,0,4.01023,0,4.774758,0.9989882,18.31611,4.023953,,,,,
6139,2021/01/30 06:09:48,77893.2,8340,1,8,0,4.013504,0,4.774758,0.9989882,18.31611,4.023953,,5.21561e-06,,,
6418,2021/01/30 07:47:00,83725.2,372.0003,1,6,-1.249973,3.910493,-4.88801,4.774758,1.128023,18.31611,4.53152,,,,,
6697,2021/01/30 07:54:32,84177.3,104.0007,1,7,0,3.938744,0,4.774758,1.248707,18.31611,5.001696,,,,,
6976,2021/01/30 07:59:11,84456.3,383.0001,1,7,0,3.953813,0,4.774758,1.248707,18.31611,5.001696,,,,,
7255,2021/01/30 09:03:48,88333.3,3660,1,8,0,3.95983,0,4.774758,1.248707,18.31611,5.001696,,-2.24429e-05,,0,0
7534,2021/01/30 11:56:25,98689.3,216.0007,1,6,-1.250216,3.872372,-4.8413,4.774758,1.323637,18.31611,5.293261,,,,,
7813,2021/01/30 12:05:15,99219.4,26.0004,1,7,0,3.876332,0,4.774758,1.498467,18.31611,5.966711,,,,,
8092,2021/01/30 12:09:54,99498.4,305.0003,1,7,0,3.89656,0,4.774758,1.498467,18.31611,5.966711,,,,,
8371,2021/01/30 12:14:33,99777.4,584.0004,1,7,0,3.906344,0,4.774758,1.498467,18.31611,5.966711,,,,,
8650,2021/01/30 16:05:49,113653,60.0005,1,6,-1.250165,3.856462,-4.82121,4.774758,1.51929,18.31611,6.047248,,,,1.02008,1.02458
8929,2021/01/30 16:15:07,114211,618.0004,1,6,-1.250212,3.799081,-4.74966,4.774758,1.712841,18.31611,6.786777,,-7.38878e-05,,,
9208,2021/01/30 16:20:36,114540,227.0008,1,7,0,3.844557,0,4.774758,1.748224,18.31611,6.921075,,,,,
9487,2021/01/30 16:25:15,114819,506.0004,1,7,0,3.848826,0,4.774758,1.748224,18.31611,6.921075,,,,,
9766,2021/01/30 19:30:49,125954,11040,1,8,0,3.870066,0,4.774758,1.748224,18.31611,6.921075,,-1.93216e-05,,0,
10045,2021/01/30 20:24:33,129178,464.0002,1,6,-1.250239,3.764958,-4.7071,4.774758,1.909171,18.31611,7.530758,,,,,
10324,2021/01/30 20:31:19,129584,150,1,7,0,3.794324,0,4.774758,1.997965,18.31611,7.864182,,1.88868e-05,,,
10603,2021/01/30 20:35:58,129863,429.0002,1,7,0,3.797374,0,4.774758,1.997965,18.31611,7.864182,,,,,
10882,2021/01/30 22:25:49,136454,6420,1,8,0,3.801021,0,4.774758,1.997965,18.31611,7.864182,,3.35461e-05,,0,0
11161,2021/01/31 00:33:59,144144,310.0002,1,6,-1.25023,3.72404,-4.65591,4.774758,2.105507,18.31611,8.26636,,,,,
11440,2021/01/31 00:42:02,144627,73.0007,1,7,0,3.739516,0,4.774758,2.247739,18.31611,8.793723,,,,,
11719,2021/01/31 00:46:41,144906,352.0003,1,7,0,3.746832,0,4.774758,2.247739,18.31611,8.793723,,,,,
11998,2021/01/31 01:20:49,146954,1800,1,8,0,3.75011,0,4.774758,2.247739,18.31611,8.793723,,3.69834e-05,,,
12277,2021/01/31 04:43:25,159110,156.001,1,6,-1.25017,3.684358,-4.60607,4.774758,2.301862,18.31611,8.99382,,,,,
12556,2021/01/31 04:52:43,159668,714.0002,1,6,-1.250228,3.638396,-4.54882,4.774758,2.495407,18.31611,9.702213,,,,,
12835,2021/01/31 04:57:24,159949,275.0004,1,7,0,3.69721,0,4.774758,2.49749,18.31611,9.709792,,,,,
13114,2021/01/31 05:02:03,160228,554.0003,1,7,0,3.699906,0,4.774758,2.49749,18.31611,9.709792,,,,,
13393,2021/01/31 08:52:51,174076,2.0005,1,6,-1.250212,3.670953,-4.58947,4.774758,2.498193,18.31611,9.712375,,-0.0013395,,0.00115649,864.685
13672,2021/01/31 09:02:09,174634,560.0002,1,6,-1.250186,3.603264,-4.50475,4.774758,2.691761,18.31611,10.41434,,,,,
13951,2021/01/31 09:08:07,174992,198,1,7,0,3.652965,0,4.774758,2.747261,18.31611,10.61405,,3.47309e-05,,,
14230,2021/01/31 09:12:46,175271,477.0004,1,7,0,3.659486,0,4.774758,2.747261,18.31611,10.61405,,,,,
14510,2021/01/31 19:58:43,184731,9337.46,1,8,0,3.665964,0,4.774758,2.747261,18.31611,10.61405,,0.00153269,,0,0
14789,2021/01/31 21:19:51,189600,406.0005,1,6,-1.249762,3.575494,-4.46852,4.774758,2.888054,18.31611,11.12024,,0.00918995,,,
15068,2021/01/31 21:27:06,190034.996,121,1,7,0,3.612516,0,4.774758,2.996917,18.31611,11.50846,,-0.00221389,,0,
15347,2021/01/31 21:31:45,190314,400.0001,1,7,0,3.623828,0,4.774758,2.996917,18.31611,11.50846,,-0.00272478,,,
15626,2021/01/31 22:53:05,195194.021,4680,1,8,0,3.63423,0,4.774758,2.996917,18.31611,11.50846,,-0.00100387,,,
15905,2021/02/01 01:29:15,204564,250.0008,1,6,-1.249998,3.555056,-4.44381,4.774758,3.083638,18.31611,11.81828,,0.00814958,,,
16184,2021/02/01 01:37:48,205077,43.0006,1,7,0,3.567333,0,4.774758,3.24664,18.31611,12.39485,,0.000866977,,,
16463,2021/02/01 01:42:27,205356,322.0006,1,7,0,3.584441,0,4.774758,3.24664,18.31611,12.39485,,0.00817435,,,
16742,2021/02/01 01:47:05,205634,600.0008,1,7,0,3.587434,0,4.774758,3.24664,18.31611,12.39485,,0.00340598,0,0,0
17021,2021/02/01 05:38:42,219530,96.0005,1,6,-1.249757,3.529552,-4.41108,4.774758,3.279936,18.31611,12.51275,,0.007456,,,
17300,2021/02/01 05:48:00,220088,654.0004,1,6,-1.249798,3.476932,-4.34546,4.774758,3.473414,18.31611,13.19003,,0.00391688,,,
17579,2021/02/01 05:53:11,220399,245.0002,1,7,0,3.529607,0,4.774758,3.4963,18.31611,13.26954,,-0.000334623,,,
17858,2021/02/01 05:57:50,220678,524.0005,1,7,0,3.532259,0,4.774758,3.4963,18.31611,13.26954,,-0.00173395,,,
18137,2021/02/01 09:21:06,232874,12120,1,8,0,3.537381,0,4.774758,3.4963,18.31611,13.26954,,0.000851495,,0,0
18416,2021/02/01 09:57:24,235052,498.0006,1,6,-1.250169,3.439025,-4.29936,4.774758,3.669047,18.31611,13.86723,,-0.00647136,,,
18695,2021/02/01 10:03:53,235441,167.0009,1,7,0,3.478828,0,4.774758,3.746067,18.31611,14.13154,,-0.020634,,,
18974,2021/02/01 10:08:32,235720.309,446.0002,1,7,0,3.482005,0,4.774758,3.746067,18.31611,14.13154,,0.00552127,,,
19253,2021/02/01 12:15:06,243314,7440,1,8,0,3.486587,0,4.774758,3.746067,18.31611,14.13154,,-0.000773249,,0,0
19532,2021/02/01 14:06:50,250018,344.0003,1,6,-1.250152,3.401652,-4.25258,4.774758,3.865393,18.31611,14.53952,,-0.00102179,,,
19811,2021/02/01 14:14:36,250484,90,1,7,0,3.425714,0,4.774758,3.99581,18.31611,14.9809,,-0.0226498,,,
20090,2021/02/01 14:19:15,250763,369.0002,1,7,0,3.435204,0,4.774758,3.99581,18.31611,14.9809,,0.000190735,,,
20369,2021/02/01 15:10:06,253814,2820,1,8,0,3.442757,0,4.774758,3.99581,18.31611,14.9809,,0.00260093,,0,0
20648,2021/02/01 18:16:16,264984,190.0003,1,6,-1.250192,3.338935,-4.17431,4.774758,4.061719,18.31611,15.20303,,-0.00698226,,,
20927,2021/02/01 18:25:19,265527.516,13.0002,1,7,0,3.303325,0,4.774758,4.245569,18.31611,15.81011,,0.000340598,,,
21206,2021/02/01 18:29:58,265807,292.0005,1,7,0,3.332737,0,4.774758,4.245569,18.31611,15.81011,,-0.0180331,,,
21485,2021/02/01 18:34:37,266086,571.0005,1,7,0,3.336794,0,4.774758,4.245569,18.31611,15.81011,,-0.000170299,,,
21764,2021/02/01 22:25:42,279951,36.0012,1,6,-1.250225,3.290226,-4.11352,4.774758,4.258065,18.31611,15.85139,,-0.00170299,,,
22043,2021/02/01 22:35:00,280509,594.0001,1,6,-1.25022,3.121014,-3.90195,4.774758,4.451623,18.31611,16.46904,,-0.000170299,,,
22322,2021/02/01 22:40:41,280850,215,1,7,0,3.176355,0,4.774758,4.495327,18.31611,16.60473,,0.000501934,,,
22601,2021/02/01 22:45:20,281129,494.0001,1,7,0,3.183865,0,4.774758,4.495327,18.31611,16.60473,,-0.00690592,,,
22880,2021/02/02 01:39:06,291555,10320,1,8,0,3.210178,0,4.774758,4.495327,18.31611,16.60473,,0.00710921,,0,
23159,2021/02/02 02:44:26,295475,440.0001,1,6,-1.249985,2.964358,-3.7054,4.774758,4.64793,18.31611,17.0684,,-0.00476837,,,
23438,2021/02/02 02:51:24,295893,138.0001,1,7,0,2.95978,0,4.774758,4.745031,18.31611,17.35052,,-0.00544957,,,
23717,2021/02/02 02:56:03,296172,417.0004,1,7,0,2.980261,0,4.774758,4.745031,18.31611,17.35052,,0.000520186,,,
23996,2021/02/02 04:34:06,302055,5700,1,8,0,3.027095,0,4.774758,4.745031,18.31611,17.35052,,-0.00119209,,0,
24275,2021/02/02 06:53:52,310441,286.0005,1,6,-1.250159,2.60345,-3.25473,4.774758,4.844231,18.31611,17.62554,,0.00554865,,0.273816,
24554,2021/02/02 07:03:08,310997,484.0006,1,10,0,2.744277,0,4.774758,4.86921,18.31611,17.68933,,-0.014045,,0,
24833,2021/02/02 10:45:04,324313,13200,1,11,0,2.85707,0,4.774758,4.86921,18.31611,17.68933,,0.00624223,,0,
24875,2021/02/02 11:25:04,326713,1800,1,13,0,2.8613,0,4.77476,4.869221,18.31611,17.68937,,-0.00568858,0,0,0